This file was created by CODIAN@move
Dienstag, 22. Juni 2010		21:38

Profile mode:	1-D-Scan    Z
Timebase Counter [ms]:	1000
No. of Steps:	351
Pos. X	Pos.Y	Pos. Z	Probe	Reference	norm. Probe	norm. Factor
70.00	86.00	75.00	25990	21860000	25990	1.00000
70.00	86.00	74.90	26060	21910000	26001	0.99772
70.00	86.00	74.80	25970	21920000	25899	0.99726
70.00	86.00	74.69	26000	21870000	25988	0.99954
70.00	86.00	74.60	26100	21870000	26088	0.99954
70.00	86.00	74.50	25980	21830000	26016	1.00137
70.00	86.00	74.40	25970	21800000	26041	1.00275
70.00	86.00	74.30	25970	21810000	26030	1.00229
70.00	86.00	74.20	26080	21860000	26080	1.00000
70.00	86.00	74.10	26070	21880000	26046	0.99909
70.00	86.00	74.00	26090	21890000	26054	0.99863
70.00	86.00	73.90	26070	21850000	26082	1.00046
70.00	86.00	73.80	26100	21860000	26100	1.00000
70.00	86.00	73.70	26150	21870000	26138	0.99954
70.00	86.00	73.59	26120	21860000	26120	1.00000
70.00	86.00	73.50	26050	21800000	26122	1.00275
70.00	86.00	73.39	26130	21790000	26214	1.00321
70.00	86.00	73.30	26170	21830000	26206	1.00137
70.00	86.00	73.19	26170	21880000	26146	0.99909
70.00	86.00	73.10	26180	21890000	26144	0.99863
70.00	86.00	73.00	26150	21830000	26186	1.00137
70.00	86.00	72.90	26200	21820000	26248	1.00183
70.00	86.00	72.80	26230	21830000	26266	1.00137
70.00	86.00	72.70	26270	21850000	26282	1.00046
70.00	86.00	72.59	26250	21850000	26262	1.00046
70.00	86.00	72.50	26260	21820000	26308	1.00183
70.00	86.00	72.39	26330	21860000	26330	1.00000
70.00	86.00	72.30	26300	21860000	26300	1.00000
70.00	86.00	72.20	26380	21880000	26356	0.99909
70.00	86.00	72.10	26320	21850000	26332	1.00046
70.00	86.00	72.00	26410	21850000	26422	1.00046
70.00	86.00	71.89	26370	21840000	26394	1.00092
70.00	86.00	71.80	26430	21840000	26454	1.00092
70.00	86.00	71.69	26410	21840000	26434	1.00092
70.00	86.00	71.60	26460	21860000	26460	1.00000
70.00	86.00	71.49	26490	21870000	26478	0.99954
70.00	86.00	71.40	26500	21860000	26500	1.00000
70.00	86.00	71.30	26580	21900000	26531	0.99817
70.00	86.00	71.20	26570	21890000	26534	0.99863
70.00	86.00	71.10	26570	21890000	26534	0.99863
70.00	86.00	71.00	26610	21860000	26610	1.00000
70.00	86.00	70.89	26620	21840000	26644	1.00092
70.00	86.00	70.80	26620	21790000	26706	1.00321
70.00	86.00	70.69	26680	21820000	26729	1.00183
70.00	86.00	70.60	26610	21800000	26683	1.00275
70.00	86.00	70.49	26710	21870000	26698	0.99954
70.00	86.00	70.40	26850	21920000	26777	0.99726
70.00	86.00	70.29	26770	21900000	26721	0.99817
70.00	86.00	70.20	26800	21880000	26776	0.99909
70.00	86.00	70.10	26850	21880000	26825	0.99909
70.00	86.00	70.00	26870	21900000	26821	0.99817
70.00	86.00	69.89	26850	21870000	26838	0.99954
70.00	86.00	69.80	26860	21840000	26885	1.00092
70.00	86.00	69.69	26880	21850000	26892	1.00046
70.00	86.00	69.60	26930	21840000	26955	1.00092
70.00	86.00	69.49	26920	21830000	26957	1.00137
70.00	86.00	69.40	26990	21840000	27015	1.00092
70.00	86.00	69.30	26970	21880000	26945	0.99909
70.00	86.00	69.20	27010	21860000	27010	1.00000
70.00	86.00	69.10	26860	21660000	27108	1.00923
70.00	86.00	69.00	27080	21890000	27043	0.99863
70.00	86.00	68.90	27130	21880000	27105	0.99909
70.00	86.00	68.80	27110	21860000	27110	1.00000
70.00	86.00	68.70	27190	21870000	27178	0.99954
70.00	86.00	68.60	27230	21860000	27230	1.00000
70.00	86.00	68.49	27270	21870000	27258	0.99954
70.00	86.00	68.40	27220	21850000	27232	1.00046
70.00	86.00	68.29	27310	21840000	27335	1.00092
70.00	86.00	68.20	27320	21880000	27295	0.99909
70.00	86.00	68.10	27350	21850000	27363	1.00046
70.00	86.00	68.00	27380	21840000	27405	1.00092
70.00	86.00	67.89	27400	21850000	27413	1.00046
70.00	86.00	67.80	27470	21880000	27445	0.99909
70.00	86.00	67.70	27450	21850000	27463	1.00046
70.00	86.00	67.60	27510	21850000	27523	1.00046
70.00	86.00	67.49	27540	21870000	27527	0.99954
70.00	86.00	67.40	27580	21860000	27580	1.00000
70.00	86.00	67.29	27620	21840000	27645	1.00092
70.00	86.00	67.20	27650	21880000	27625	0.99909
70.00	86.00	67.10	27670	21860000	27670	1.00000
70.00	86.00	67.00	27650	21810000	27713	1.00229
70.00	86.00	66.90	27750	21870000	27737	0.99954
70.00	86.00	66.80	27760	21850000	27773	1.00046
70.00	86.00	66.70	27840	21830000	27878	1.00137
70.00	86.00	66.60	27800	21850000	27813	1.00046
70.00	86.00	66.49	27830	21830000	27868	1.00137
70.00	86.00	66.40	27880	21850000	27893	1.00046
70.00	86.00	66.29	28040	21910000	27976	0.99772
70.00	86.00	66.20	27930	21870000	27917	0.99954
70.00	86.00	66.10	28030	21880000	28004	0.99909
70.00	86.00	66.00	28020	21850000	28033	1.00046
70.00	86.00	65.89	27920	21750000	28061	1.00506
70.00	86.00	65.80	28080	21810000	28144	1.00229
70.00	86.00	65.70	28130	21870000	28117	0.99954
70.00	86.00	65.60	28150	21850000	28163	1.00046
70.00	86.00	65.49	28270	21860000	28270	1.00000
70.00	86.00	65.40	28220	21870000	28207	0.99954
70.00	86.00	65.29	28370	21910000	28305	0.99772
70.00	86.00	65.20	28390	21880000	28364	0.99909
70.00	86.00	65.10	28300	21780000	28404	1.00367
70.00	86.00	65.00	28280	21710000	28475	1.00691
70.00	86.00	64.89	28570	21940000	28466	0.99635
70.00	86.00	64.80	28510	21890000	28471	0.99863
70.00	86.00	64.70	28230	21600000	28570	1.01204
70.00	86.00	64.60	28480	21790000	28571	1.00321
70.00	86.00	64.49	28650	21900000	28598	0.99817
70.00	86.00	64.40	28670	21840000	28696	1.00092
70.00	86.00	64.29	28670	21860000	28670	1.00000
70.00	86.00	64.20	28750	21870000	28737	0.99954
70.00	86.00	64.10	28700	21800000	28779	1.00275
70.00	86.00	64.00	28720	21790000	28812	1.00321
70.00	86.00	63.89	28910	21810000	28976	1.00229
70.00	86.00	63.80	28890	21830000	28930	1.00137
70.00	86.00	63.70	28980	21860000	28980	1.00000
70.00	86.00	63.60	29070	21890000	29030	0.99863
70.00	86.00	63.49	29100	21860000	29100	1.00000
70.00	86.00	63.40	29090	21870000	29077	0.99954
70.00	86.00	63.29	29180	21890000	29140	0.99863
70.00	86.00	63.20	29220	21890000	29180	0.99863
70.00	86.00	63.10	29300	21860000	29300	1.00000
70.00	86.00	63.00	29400	21880000	29373	0.99909
70.00	86.00	62.89	29380	21900000	29326	0.99817
70.00	86.00	62.80	29490	21920000	29409	0.99726
70.00	86.00	62.69	29580	21930000	29486	0.99681
70.00	86.00	62.60	29620	21910000	29552	0.99772
70.00	86.00	62.49	29480	21800000	29561	1.00275
70.00	86.00	62.40	29410	21680000	29654	1.00830
70.00	86.00	62.30	29650	21900000	29596	0.99817
70.00	86.00	62.20	29750	21880000	29723	0.99909
70.00	86.00	62.09	29730	21840000	29757	1.00092
70.00	86.00	62.00	29800	21830000	29841	1.00137
70.00	86.00	61.89	29820	21810000	29888	1.00229
70.00	86.00	61.80	29540	21590000	29909	1.01251
70.00	86.00	61.69	29730	21660000	30005	1.00923
70.00	86.00	61.60	29830	21710000	30036	1.00691
70.00	86.00	61.49	30210	21920000	30127	0.99726
70.00	86.00	61.40	30020	21780000	30130	1.00367
70.00	86.00	61.30	30210	21830000	30252	1.00137
70.00	86.00	61.20	30240	21840000	30268	1.00092
70.00	86.00	61.10	30250	21780000	30361	1.00367
70.00	86.00	61.00	30370	21800000	30454	1.00275
70.00	86.00	60.89	30510	21880000	30482	0.99909
70.00	86.00	60.80	30360	21750000	30514	1.00506
70.00	86.00	60.69	30450	21750000	30604	1.00506
70.00	86.00	60.60	30580	21810000	30650	1.00229
70.00	86.00	60.49	30800	21920000	30716	0.99726
70.00	86.00	60.40	31290	22200000	30811	0.98468
70.00	86.00	60.29	31310	22190000	30844	0.98513
70.00	86.00	60.20	31050	21980000	30880	0.99454
70.00	86.00	60.09	30600	21620000	30940	1.01110
70.00	86.00	60.00	30830	21720000	31029	1.00645
70.00	86.00	59.90	30940	21750000	31096	1.00506
70.00	86.00	59.80	31270	21940000	31156	0.99635
70.00	86.00	59.70	31110	21780000	31224	1.00367
70.00	86.00	59.60	31120	21730000	31306	1.00598
70.00	86.00	59.50	31380	21920000	31294	0.99726
70.00	86.00	59.40	31320	21810000	31392	1.00229
70.00	86.00	59.30	31410	21820000	31468	1.00183
70.00	86.00	59.19	31620	21850000	31634	1.00046
70.00	86.00	59.10	31870	22010000	31653	0.99318
70.00	86.00	58.99	31940	21990000	31751	0.99409
70.00	86.00	58.90	32020	22010000	31802	0.99318
70.00	86.00	58.79	31790	21770000	31921	1.00413
70.00	86.00	58.70	31850	21780000	31967	1.00367
70.00	86.00	58.59	31860	21790000	31962	1.00321
70.00	86.00	58.50	32060	21830000	32104	1.00137
70.00	86.00	58.40	32190	21860000	32190	1.00000
70.00	86.00	58.30	32340	21960000	32193	0.99545
70.00	86.00	58.20	32430	21910000	32356	0.99772
70.00	86.00	58.09	32510	21950000	32377	0.99590
70.00	86.00	58.00	32480	21820000	32540	1.00183
70.00	86.00	57.89	32590	21860000	32590	1.00000
70.00	86.00	57.80	32980	22120000	32592	0.98825
70.00	86.00	57.70	32990	22020000	32750	0.99273
70.00	86.00	57.60	32960	21940000	32840	0.99635
70.00	86.00	57.50	32920	21890000	32875	0.99863
70.00	86.00	57.40	33020	21830000	33065	1.00137
70.00	86.00	57.30	33060	21850000	33075	1.00046
70.00	86.00	57.20	33170	21850000	33185	1.00046
70.00	86.00	57.09	33320	21840000	33351	1.00092
70.00	86.00	57.00	33330	21850000	33345	1.00046
70.00	86.00	56.89	33420	21850000	33435	1.00046
70.00	86.00	56.80	33600	21850000	33615	1.00046
70.00	86.00	56.69	33680	21870000	33665	0.99954
70.00	86.00	56.60	33730	21810000	33807	1.00229
70.00	86.00	56.50	33830	21840000	33861	1.00092
70.00	86.00	56.40	33930	21840000	33961	1.00092
70.00	86.00	56.29	34030	21820000	34092	1.00183
70.00	86.00	56.20	34250	21860000	34250	1.00000
70.00	86.00	56.09	34310	21870000	34294	0.99954
70.00	86.00	56.00	34350	21850000	34366	1.00046
70.00	86.00	55.90	34470	21860000	34470	1.00000
70.00	86.00	55.80	34750	21910000	34671	0.99772
70.00	86.00	55.69	34770	21890000	34722	0.99863
70.00	86.00	55.60	34900	21910000	34820	0.99772
70.00	86.00	55.49	34760	21750000	34936	1.00506
70.00	86.00	55.40	35100	21910000	35020	0.99772
70.00	86.00	55.30	35190	21880000	35158	0.99909
70.00	86.00	55.20	35230	21820000	35295	1.00183
70.00	86.00	55.09	35350	21840000	35382	1.00092
70.00	86.00	55.00	35610	21890000	35561	0.99863
70.00	86.00	54.90	35680	21860000	35680	1.00000
70.00	86.00	54.79	35730	21850000	35746	1.00046
70.00	86.00	54.70	35900	21830000	35949	1.00137
70.00	86.00	54.59	36030	21860000	36030	1.00000
70.00	86.00	54.50	36290	21930000	36174	0.99681
70.00	86.00	54.39	36130	21730000	36346	1.00598
70.00	86.00	54.30	36000	21640000	36366	1.01017
70.00	86.00	54.19	36470	21810000	36554	1.00229
70.00	86.00	54.10	36900	21970000	36715	0.99499
70.00	86.00	53.99	36950	21930000	36832	0.99681
70.00	86.00	53.90	37000	21900000	36932	0.99817
70.00	86.00	53.79	37210	21890000	37159	0.99863
70.00	86.00	53.70	37250	21870000	37233	0.99954
70.00	86.00	53.59	37390	21830000	37441	1.00137
70.00	86.00	53.50	37500	21790000	37620	1.00321
70.00	86.00	53.39	37690	21840000	37725	1.00092
70.00	86.00	53.30	37830	21860000	37830	1.00000
70.00	86.00	53.19	37810	21720000	38054	1.00645
70.00	86.00	53.10	37690	21590000	38161	1.01251
70.00	86.00	52.99	38370	21880000	38335	0.99909
70.00	86.00	52.90	38720	21970000	38526	0.99499
70.00	86.00	52.79	38840	21970000	38646	0.99499
70.00	86.00	52.70	38890	21900000	38819	0.99817
70.00	86.00	52.59	38950	21830000	39004	1.00137
70.00	86.00	52.50	39260	21880000	39224	0.99909
70.00	86.00	52.39	39400	21860000	39400	1.00000
70.00	86.00	52.30	39480	21820000	39552	1.00183
70.00	86.00	52.19	39690	21830000	39745	1.00137
70.00	86.00	52.10	39940	21860000	39940	1.00000
70.00	86.00	51.99	40060	21840000	40097	1.00092
70.00	86.00	51.90	40430	21870000	40412	0.99954
70.00	86.00	51.79	40620	21910000	40527	0.99772
70.00	86.00	51.70	40550	21740000	40774	1.00552
70.00	86.00	51.59	41030	21890000	40974	0.99863
70.00	86.00	51.50	41170	21860000	41170	1.00000
70.00	86.00	51.39	41280	21810000	41375	1.00229
70.00	86.00	51.30	41430	21780000	41582	1.00367
70.00	86.00	51.19	41820	21840000	41858	1.00092
70.00	86.00	51.10	41910	21810000	42006	1.00229
70.00	86.00	50.99	42300	21840000	42339	1.00092
70.00	86.00	50.90	42620	21890000	42562	0.99863
70.00	86.00	50.79	42550	21730000	42805	1.00598
70.00	86.00	50.70	43070	21840000	43109	1.00092
70.00	86.00	50.59	43310	21840000	43350	1.00092
70.00	86.00	50.50	43410	21780000	43569	1.00367
70.00	86.00	50.39	43770	21800000	43890	1.00275
70.00	86.00	50.30	43940	21810000	44041	1.00229
70.00	86.00	50.19	44520	21920000	44398	0.99726
70.00	86.00	50.10	44710	21880000	44669	0.99909
70.00	86.00	49.99	44930	21830000	44992	1.00137
70.00	86.00	49.90	45160	21820000	45243	1.00183
70.00	86.00	49.79	45580	21820000	45664	1.00183
70.00	86.00	49.70	45880	21830000	45943	1.00137
70.00	86.00	49.59	46310	21890000	46247	0.99863
70.00	86.00	49.50	46720	21910000	46613	0.99772
70.00	86.00	49.39	46870	21770000	47064	1.00413
70.00	86.00	49.30	46950	21690000	47318	1.00784
70.00	86.00	49.19	47850	21940000	47676	0.99635
70.00	86.00	49.10	48310	21990000	48024	0.99409
70.00	86.00	48.99	48580	21890000	48513	0.99863
70.00	86.00	48.90	48770	21840000	48815	1.00092
70.00	86.00	48.79	49310	21850000	49333	1.00046
70.00	86.00	48.70	49490	21790000	49649	1.00321
70.00	86.00	48.59	49950	21820000	50042	1.00183
70.00	86.00	48.50	50260	21700000	50631	1.00737
70.00	86.00	48.39	50620	21660000	51087	1.00923
70.00	86.00	48.30	50970	21620000	51536	1.01110
70.00	86.00	48.19	51660	21700000	52041	1.00737
70.00	86.00	48.10	52450	21750000	52715	1.00506
70.00	86.00	48.00	53100	21800000	53246	1.00275
70.00	86.00	47.90	54200	22030000	53782	0.99228
70.00	86.00	47.79	53680	21590000	54351	1.01251
70.00	86.00	47.70	54620	21770000	54846	1.00413
70.00	86.00	47.60	55420	21790000	55598	1.00321
70.00	86.00	47.49	56100	21770000	56332	1.00413
70.00	86.00	47.40	56960	21870000	56934	0.99954
70.00	86.00	47.29	57360	21720000	57730	1.00645
70.00	86.00	47.20	58350	21800000	58511	1.00275
70.00	86.00	47.09	59050	21820000	59158	1.00183
70.00	86.00	47.00	59890	21830000	59972	1.00137
70.00	86.00	46.89	60950	21880000	60894	0.99909
70.00	86.00	46.80	61840	21870000	61812	0.99954
70.00	86.00	46.70	63290	22020000	62830	0.99273
70.00	86.00	46.59	64230	21960000	63938	0.99545
70.00	86.00	46.50	65100	21920000	64922	0.99726
70.00	86.00	46.39	65820	21760000	66122	1.00460
70.00	86.00	46.30	67380	21890000	67288	0.99863
70.00	86.00	46.19	69030	21970000	68684	0.99499
70.00	86.00	46.10	70030	21820000	70158	1.00183
70.00	86.00	46.00	71880	21900000	71749	0.99817
70.00	86.00	45.90	73670	21940000	73401	0.99635
70.00	86.00	45.80	75510	21910000	75338	0.99772
70.00	86.00	45.70	77450	21900000	77309	0.99817
70.00	86.00	45.60	79150	21810000	79331	1.00229
70.00	86.00	45.50	81590	21840000	81665	1.00092
70.00	86.00	45.40	83470	21760000	83854	1.00460
70.00	86.00	45.29	86080	21740000	86555	1.00552
70.00	86.00	45.20	88910	21840000	88991	1.00092
70.00	86.00	45.09	91360	21780000	91696	1.00367
70.00	86.00	45.00	93900	21830000	94029	1.00137
70.00	86.00	44.89	96310	21820000	96487	1.00183
70.00	86.00	44.80	98640	21950000	98236	0.99590
70.00	86.00	44.69	99850	21850000	99896	1.00046
70.00	86.00	44.60	101200	21860000	101200	1.00000
70.00	86.00	44.49	102200	21960000	101735	0.99545
70.00	86.00	44.40	101500	21850000	101546	1.00046
70.00	86.00	44.29	100200	21810000	100430	1.00229
70.00	86.00	44.20	98750	21890000	98615	0.99863
70.00	86.00	44.09	95680	21870000	95636	0.99954
70.00	86.00	44.00	92080	21890000	91954	0.99863
70.00	86.00	43.89	87340	21860000	87340	1.00000
70.00	86.00	43.80	83000	22140000	81950	0.98735
70.00	86.00	43.69	75850	22010000	75333	0.99318
70.00	86.00	43.60	69030	21790000	69252	1.00321
70.00	86.00	43.49	61730	21740000	62071	1.00552
70.00	86.00	43.40	55160	21770000	55388	1.00413
70.00	86.00	43.29	48140	21820000	48228	1.00183
70.00	86.00	43.20	41590	21850000	41609	1.00046
70.00	86.00	43.09	35080	21830000	35128	1.00137
70.00	86.00	43.00	29400	21930000	29306	0.99681
70.00	86.00	42.89	23810	21810000	23865	1.00229
70.00	86.00	42.80	19370	21990000	19255	0.99409
70.00	86.00	42.70	15190	21840000	15204	1.00092
70.00	86.00	42.60	11910	21920000	11877	0.99726
70.00	86.00	42.50	9110	21970000	9064	0.99499
70.00	86.00	42.40	6800	21970000	6766	0.99499
70.00	86.00	42.30	5120	21920000	5106	0.99726
70.00	86.00	42.19	3690	21940000	3677	0.99635
70.00	86.00	42.10	2710	21900000	2705	0.99817
70.00	86.00	41.99	1920	22000000	1908	0.99364
70.00	86.00	41.90	1370	21920000	1366	0.99726
70.00	86.00	41.79	960	21940000	956	0.99635
70.00	86.00	41.70	690	21610000	698	1.01157
70.00	86.00	41.60	490	21730000	493	1.00598
70.00	86.00	41.50	380	21820000	381	1.00183
70.00	86.00	41.39	280	21800000	281	1.00275
70.00	86.00	41.30	230	21970000	229	0.99499
70.00	86.00	41.19	180	21760000	181	1.00460
70.00	86.00	41.10	150	21800000	150	1.00275
70.00	86.00	40.99	130	21870000	130	0.99954
70.00	86.00	40.90	120	21820000	120	1.00183
70.00	86.00	40.79	110	21890000	110	0.99863
70.00	86.00	40.70	110	21790000	110	1.00321
70.00	86.00	40.60	100	21820000	100	1.00183
70.00	86.00	40.50	100	22120000	99	0.98825
70.00	86.00	40.40	100	22130000	99	0.98780
70.00	86.00	40.30	100	22460000	97	0.97329
70.00	86.00	40.20	100	22020000	99	0.99273
70.00	86.00	40.09	100	21560000	101	1.01391
70.00	86.00	40.00	90	21600000	91	1.01204
